Question_image,Correct_key,thisN,thisTrialN,thisRepN,key_resp.keys,key_resp.corr,key_resp.rt,key_resp.duration,trialsArticle.thisRepN,trialsArticle.thisTrialN,trialsArticle.thisN,trialsArticle.thisIndex,thisRow.t,notes,Question1.started,imageQuestion.started,key_resp.started,Question1.stopped,trialsArticle.key_resp.keys,trialsArticle.key_resp.corr,trialsArticle.key_resp.rt,trialsArticle.key_resp.duration,blank500.started,text.started,blank500.stopped,text.stopped,participant,session,date,expName,psychopyVersion,frameRate,expStart,
image/question16.png,2,0,0,0,1,0,2.4202008000575006,None,0,0,0,15,0.10720019997097552,,0.0916643999516964,0.10720019997097552,0.10720019997097552,2.58058419986628,1,0,2.4202008000575006,None,2.5806291999761015,2.6002863000612706,3.0840793000534177,,733799,001,2025-04-20_23h58.29.322,test-alevel,2024.2.5,59.941041988760055,2025-04-20 23h58.35.213283 +0700,
image/question4.png,4,1,1,0,2,0,0.25970280007459223,None,0,1,1,3,3.1212551000062376,,3.109894199995324,3.1212551000062376,3.1212551000062376,3.3886015000753105,2,0,0.25970280007459223,None,3.3886402999050915,3.4048526000697166,3.8888638999778777,3.9253324000164866,733799,001,2025-04-20_23h58.29.322,test-alevel,2024.2.5,59.941041988760055,2025-04-20 23h58.35.213283 +0700,
image/question13.png,4,2,2,0,3,0,0.2785392999649048,None,0,2,2,12,3.9253324000164866,,3.9138823999091983,3.9253324000164866,3.9253324000164866,4.20993909984827,3,0,0.2785392999649048,None,4.209975800011307,4.226114799967036,4.7097004998940974,4.747104000067338,733799,001,2025-04-20_23h58.29.322,test-alevel,2024.2.5,59.941041988760055,2025-04-20 23h58.35.213283 +0700,
image/question3.png,4,3,3,0,1,0,2.737705800216645,None,0,3,3,2,4.747104000067338,,4.735610199859366,4.747104000067338,4.747104000067338,7.499993599951267,1,0,2.737705800216645,None,7.500028599984944,7.515742899850011,8.000057899858803,,733799,001,2025-04-20_23h58.29.322,test-alevel,2024.2.5,59.941041988760055,2025-04-20 23h58.35.213283 +0700,
image/question17.png,3,4,4,0,2,0,2.548764699837193,None,0,4,4,16,8.037232300033793,,8.025651399977505,8.037232300033793,8.037232300033793,10.590040999930352,2,0,2.548764699837193,None,10.590079099871218,10.606184500036761,11.090147499926388,11.126644599949941,733799,001,2025-04-20_23h58.29.322,test-alevel,2024.2.5,59.941041988760055,2025-04-20 23h58.35.213283 +0700,
image/question6.png,3,5,5,0,1,0,0.9627733998931944,None,0,5,5,5,11.126644599949941,,11.116266399854794,11.126644599949941,11.126644599949941,12.095111100003123,1,0,0.9627733998931944,None,12.095146599924192,12.11137990001589,12.595187099883333,,733799,001,2025-04-20_23h58.29.322,test-alevel,2024.2.5,59.941041988760055,2025-04-20 23h58.35.213283 +0700,
image/question19.png,1,6,6,0,3,0,1.8664068998768926,None,0,6,6,18,12.632363900076598,,12.62120829988271,12.632363900076598,12.632363900076598,14.501283099874854,3,0,1.8664068998768926,None,14.501323600066826,14.517363799968734,15.001410899916664,15.038382400060073,733799,001,2025-04-20_23h58.29.322,test-alevel,2024.2.5,59.941041988760055,2025-04-20 23h58.35.213283 +0700,
image/question7.png,1,7,7,0,2,0,2.1936514999251813,None,0,7,7,6,15.038382400060073,,15.026375300018117,15.038382400060073,15.038382400060073,17.240771800046787,2,0,2.1936514999251813,None,17.240810099989176,17.258729399880394,17.740831299917772,,733799,001,2025-04-20_23h58.29.322,test-alevel,2024.2.5,59.941041988760055,2025-04-20 23h58.35.213283 +0700,
image/question14.png,3,8,8,0,1,0,1.309796900022775,None,0,8,8,13,17.777999199926853,,17.76570919994265,17.777999199926853,17.777999199926853,19.09637749986723,1,0,1.309796900022775,None,19.09641520003788,19.112067400012165,19.59648699988611,19.633508099941537,733799,001,2025-04-20_23h58.29.322,test-alevel,2024.2.5,59.941041988760055,2025-04-20 23h58.35.213283 +0700,
image/question15.png,2,9,9,0,2,1,1.0035609998740256,None,0,9,9,14,19.633508099941537,,19.621442599920556,19.633508099941537,19.633508099941537,20.651698499917984,2,1,1.0035609998740256,None,20.65173629997298,20.66777619998902,21.151825200067833,21.18877030001022,733799,001,2025-04-20_23h58.29.322,test-alevel,2024.2.5,59.941041988760055,2025-04-20 23h58.35.213283 +0700,
image/question2.png,4,10,10,0,3,0,1.0058877000119537,None,0,10,10,1,21.18877030001022,,21.176879500038922,21.18877030001022,21.18877030001022,22.206765800016,3,0,1.0058877000119537,None,22.20680160005577,22.22301959991455,22.706832299940288,,733799,001,2025-04-20_23h58.29.322,test-alevel,2024.2.5,59.941041988760055,2025-04-20 23h58.35.213283 +0700,
image/question12.png,3,11,11,0,1,0,2.010614400031045,None,0,11,11,11,22.743518400005996,,22.73173310002312,22.743518400005996,22.743518400005996,24.76294569997117,1,0,2.010614400031045,None,24.762980799889192,24.77915870002471,25.263153899926692,25.30015160003677,733799,001,2025-04-20_23h58.29.322,test-alevel,2024.2.5,59.941041988760055,2025-04-20 23h58.35.213283 +0700,
image/question20.png,4,12,12,0,2,0,2.6644239998422563,None,0,12,12,19,25.30015160003677,,25.288807600038126,25.30015160003677,25.30015160003677,27.969720999943092,2,0,2.6644239998422563,None,27.969758699880913,27.985889100003988,28.4698580999393,28.506868900032714,733799,001,2025-04-20_23h58.29.322,test-alevel,2024.2.5,59.941041988760055,2025-04-20 23h58.35.213283 +0700,
image/question10.png,1,13,13,0,3,0,0.8825395999010652,None,0,13,13,9,28.506868900032714,,28.495043999981135,28.506868900032714,28.506868900032714,29.39155779988505,3,0,0.8825395999010652,None,29.39159610006027,29.40926819993183,29.908167199930176,,733799,001,2025-04-20_23h58.29.322,test-alevel,2024.2.5,59.941041988760055,2025-04-20 23h58.35.213283 +0700,
image/question5.png,2,14,14,0,1,0,1.0085827999282628,None,0,14,14,4,29.945341299986467,,29.933525699889287,29.945341299986467,29.945341299986467,30.96337560005486,1,0,1.0085827999282628,None,30.963411999866366,30.979598599951714,31.46318589989096,31.500589000061154,733799,001,2025-04-20_23h58.29.322,test-alevel,2024.2.5,59.941041988760055,2025-04-20 23h58.35.213283 +0700,
image/question1.png,2,15,15,0,2,1,0.7992317001335323,None,0,15,15,0,31.500589000061154,,31.489315999904647,31.500589000061154,31.500589000061154,32.301402899902314,2,1,0.7992317001335323,None,32.30144009995274,32.31799379992299,32.801786199910566,,733799,001,2025-04-20_23h58.29.322,test-alevel,2024.2.5,59.941041988760055,2025-04-20 23h58.35.213283 +0700,
image/question11.png,3,16,16,0,3,1,0.8191724000498652,None,0,16,16,10,32.8395572998561,,32.82680629985407,32.8395572998561,32.8395572998561,33.67348979995586,3,1,0.8191724000498652,None,33.67352669988759,33.689273099880666,34.173746400047094,34.21072870003991,733799,001,2025-04-20_23h58.29.322,test-alevel,2024.2.5,59.941041988760055,2025-04-20 23h58.35.213283 +0700,
image/question18.png,2,17,17,0,1,0,1.4305004000198096,None,0,17,17,17,34.21072870003991,,34.19877199991606,34.21072870003991,34.21072870003991,35.64581410004757,1,0,1.4305004000198096,None,35.64585059997626,35.66156439995393,36.14595849998295,36.183149999938905,733799,001,2025-04-20_23h58.29.322,test-alevel,2024.2.5,59.941041988760055,2025-04-20 23h58.35.213283 +0700,
image/question9.png,4,18,18,0,3,0,1.037819999968633,None,0,18,18,8,36.183149999938905,,36.170997200068086,36.183149999938905,36.183149999938905,37.234476499957964,3,0,1.037819999968633,None,37.23451399989426,37.25063899997622,37.7346578000579,37.771621600026265,733799,001,2025-04-20_23h58.29.322,test-alevel,2024.2.5,59.941041988760055,2025-04-20 23h58.35.213283 +0700,
image/question8.png,2,19,19,0,1,0,0.5621780001092702,None,0,19,19,7,37.771621600026265,,37.75976569997147,37.771621600026265,37.771621600026265,38.33939219987951,1,0,0.5621780001092702,None,38.3394307999406,38.35547770000994,38.839039999991655,38.85592549992725,733799,001,2025-04-20_23h58.29.322,test-alevel,2024.2.5,59.941041988760055,2025-04-20 23h58.35.213283 +0700,
